5/10/2023	11:27:57 AM

Pc[W]	Q0	Eacc[MV/m]	He_temp[K]
2.106	2558476710.100	6.835	2.001700
15038.841887	348.071391	400.086801	6456.081568	7346.388888	7173.134714	5952.050048	392.476063	7215.892614	105156.198328	6215.032158	6676.332933	6893.555874	6249.750731	10104.981690	7278.134046
6574.290068	9691.464675	6145.005659	5880.701727	7276.750043	9614.776834	7884.071968	381.237694	5847.687198	5665.624003	6717.493359	6102.921580	6588.420654	9952.317005	5949.141228	6025.429758
377.511861	9767.465653	11251.911141	6241.191339	5333.885370	6294.058330	5562.123219	6245.192488	410.042435	6061.170837	446.821306	6400.203818	79000.237872	6204.158312	57105.439145	8458.079538
5913.297957	375.417360	5924.905419	7583.413990	7470.499887	9034.214509	6008.483896	6174.459763	6179.114299	5948.203402	418.392505	6096.057800	6457.160838	6076.003915	6880.567281	8664.200463
9689.967569	9553.570926	399.491939	5360.513489	9281.336114	5998.376028	6149.914956	347.261058	6794.399741	347.606372	9600.097037	10239.349027	368.269380	9103.201521	5153.166856	6385.742511
9800.516689	7115.330990	6894.926527	345.279904	6755.178280	354.754537	6666.774580	6883.378625	7014.216584	7347.752594	390.489074	6136.857024	6095.496285	378.340660	10249.698415	5919.423227
105134.015902	7409.693674	9436.032956	6575.579873	8040.120651	6544.207838	5727.041890	7173.807387	9329.355626	6377.752831	6239.667107	10136.353549	412.757145	6630.749429	9516.866502	8452.704853
105141.409004	9049.399111	9197.621207	5821.496675	6280.995174	5697.494203	9455.228549	395.786578	6771.793340	6144.090485	6174.219126	9039.422698	5885.607562	6375.758332	8478.012229	5944.041018
375.007483	6049.193300	8266.382544	6054.888740	6193.695335	6138.411590	421.692906	449.056919	6326.320133	9071.356048	6506.945409	6540.984847	6238.756266	6962.142008	6512.842096	8771.370927
383.474371	6507.498985	9105.020926	404.484497	11513.530062	383.715729	10057.562313	439.472039	7527.872710	401.587054	6203.356117	5331.443510	6140.801573	6563.046191	6936.881230	395.184737
105136.480154	611.336689	6494.648710	8468.989367	6563.219805	6684.117773	9568.316179	382.405236	6462.945699	6374.759529	11755.370578	6317.551329	6527.442005	105143.873602	105131.551766	105146.338316
8892.451205	9200.829984	350.774178	9707.308414	5665.300474	9923.918699	9700.047941	391.513522	372.377828	385.881801	8510.100702	6892.196834	6762.411951	7606.935017	6109.092514	364.355901
7093.320499	6606.950439	6689.638142	6057.579246	13485.997929	6948.515464	6788.876649	366.387149	323.148456	478.609276	7593.786993	5974.249862	5866.469528	5704.205093	5396.087913	9120.103284
413.780668	411.714221	6296.757031	6242.182252	10219.210668	6269.790572	5582.467427	6501.611411	6133.548678	6160.262332	10653.975361	5982.512444	6162.267862	6017.584937	494.700611	618.111699
9260.456489	10042.196258	6138.027063	6301.755814	9214.306812	424.811353	7734.159817	337.378502	7560.265270	6999.058412	10036.458247	6228.398967	6105.906999	6073.721757	6267.304408	9873.727853
381.585153	408.919471	7388.050955	9434.768934	6601.152128	6855.378423	6656.345579	9181.547990	8942.666132	382.066447	6323.296149	685.521572	105141.409004	7010.362077	6862.277281	8146.568882
6174.845135	6299.057714	6258.693694	1679.073944	5805.949811	6324.141965	6720.770477	422.986269	6741.068363	7693.870767	330.480131	7226.374700	5650.781465	5808.220234	6355.532085	7135.343723
7321.499120	10952.899740	6981.807239	6416.077565	403.021587	890.273406	9245.145592	6498.106086	6939.207577	6284.064770	14300.517968	9483.165183	9505.083934	5401.197172	7466.583725	411.412612
6646.976866	6104.219132	6468.401888	6218.895177	9909.860759	10727.377502	7407.059480	6798.353284	408.179908	7065.491873	10625.472448	6626.811467	10400.954168	5893.463072	5516.699546	105156.830961
6492.058618	6953.408623	6004.587879	6460.888118	9600.649971	8151.534411	5954.329430	105144.505873	6398.540460	6869.903208	9484.549631	7596.058484	6991.916034	344.056706	365.715671	378.194280
7125.339015	5963.314313	10289.534020	6282.049026	6528.632515	6355.153770	6248.880809	6057.069165	5765.591973	5601.606910	5968.008282	6165.488751	6719.319231	6007.736004	9653.657509	6365.055720
5970.355091	5896.315238	345.797192	6007.916046	5999.053793	6282.839205	7677.601370	6248.532065	406.056008	403.918566	9804.282559	9935.290027	7681.213163	6659.709971	5349.915320	351.652723
7160.061212	395.029305	6441.216620	373.505612	6327.571379	7199.175399	7073.284336	343.920455	6617.322648	389.389228	411.671163	6173.766839	7732.911175	8004.004498	7394.692669	7087.685392
105154.365712	580.660143	385.627915	7211.963741	9211.139902	7664.005081	419.371950	6100.556996	8879.663368	360.822350	9502.172878	5532.422360	8339.790911	6185.159518	9950.822797	371.634409
386.947754	372.525504	6265.070590	6420.590586	6598.438958	370.359657	6773.887318	400.299185	382.107096	6392.935758	6806.854766	5921.277903	6976.757831	6471.992659	372.258675	392.866328
5592.104843	6591.929291	7387.206869	384.228107	387.312579	9675.288249	5847.336417	6415.606887	335.954647	7859.983235	7690.759774	7619.544845	6375.630949	372.338886	6641.852363	384.397548
5869.178754	8937.991975	6591.667586	5738.444211	6010.259795	6943.367614	7119.498344	6635.700280	8078.271880	6373.749972	6469.755649	7391.795152	6420.910656	7635.298280	352.582219	558.739027
6445.533642	5987.641920	6518.921448	5829.717798	9316.239954	6318.809367	6231.947099	6600.008943	10004.802071	9224.645545	5512.826881	396.294072	5668.745868	7313.033601	9181.655522	6479.861495
6138.118426	6521.018817	10039.017787	9646.066047	6826.665712	7075.744268	10611.122132	6432.180945	19678.100982	7582.885047	6887.871738	6645.523620	9663.071140	20368.746199	5720.107082	6140.029561
9582.361098	8006.356517	7396.537680	6318.618305	6704.249606	6238.971893	5684.785592	7130.232691	6441.858421	6170.127074	6353.285795	5889.955799	6588.658084	367.712513	367.898818	6057.032274
384.887869	6643.768139	372.293581	376.874864	6781.619145	838.221674	383.533147	444.340117	7761.488428	6805.886847	6403.510825	6814.233633	11668.368770	7427.087224	105154.365712	610.739924
6529.347157	7689.735961	6015.478161	9135.886291	406.386400	6490.382259	5811.502171	926.245038	6428.192035	5973.725600	105142.041202	8008.569068	6093.888532	6930.563102	9959.341166	384.406559
7046.875139	10204.743704	390.975302	9452.974803	9546.310916	10265.789912	8735.070509	6419.647852	9503.215734	9132.944872	9703.244537	9403.301683	6020.230481	7755.113951	698.015294	6160.757084
6008.980301	407.448341	6689.324929	5923.823417	6674.660173	6047.812475	6655.315132	5519.155236	6599.418818	10044.788173	6202.952966	9272.468507	6170.061434	6941.541128	7347.937084	351.356580
7132.779544	7258.873154	10112.255466	9461.477576	6041.299203	6396.364071	6682.597618	518.483102	7103.642007	6052.398025	6899.021801	10050.428737	6749.491533	381.456362	10383.157665	8825.949542
6523.310155	6178.501386	6023.862820	6846.640436	7216.527548	374.940788	6280.592992	370.546148	6502.615771	7334.620482	7166.994822	6467.439198	5535.489518	7298.029461	392.027305	339.740839
