5/10/2023	11:32:28 AM

Pc[W]	Q0	Eacc[MV/m]	He_temp[K]
0.602	266049353.978	1.179	2.001700
15043.970679	347.910820	402.172104	6453.511789	7346.065217	7172.570430	5990.792741	396.245864	7314.802490	105156.158224	6214.789147	6677.292995	6893.553245	6250.710933	10105.378933	7278.211490
6571.560106	9691.621414	6139.789431	5879.897348	7275.544036	9614.372079	7883.025988	378.750519	5843.674099	5669.070866	6716.207409	6101.876403	6588.578572	9950.789008	5947.855452	6025.748337
375.345798	9767.141081	11253.912238	6236.937139	5333.722908	6292.772362	5564.768084	6245.029679	408.518256	6064.297222	447.543109	6401.886021	76306.150497	6205.519673	59455.902026	8450.054387
5912.012104	372.770044	5926.988518	7577.234504	7465.683883	9037.500053	6006.315634	6171.329151	6177.667962	5951.329317	417.590059	6097.900431	6455.874838	6076.402675	6882.409700	8661.870855
9690.364941	9523.004458	400.935733	5360.912578	9282.696238	6005.112316	6148.228164	350.228967	6796.643236	349.050253	9601.055984	10239.104464	373.162384	9101.513327	5148.912972	6386.060975
11299.114390	7113.002245	6893.159074	346.804009	6756.218627	354.433502	6663.402671	6884.017814	7015.256784	7353.445226	394.980992	6134.769227	6095.814823	377.778942	10255.069077	5911.960929
105133.975807	7412.739180	9434.745849	6575.416930	8039.315241	6543.643808	5726.638591	7172.119849	9331.277465	6380.959169	6245.761676	10137.151838	412.034964	6631.789824	9516.943086	8450.375271
105141.368906	9047.390084	9196.093533	5821.975816	6284.442287	5698.053486	9456.588766	391.453878	6771.790758	6144.729881	6172.371902	9038.697227	5884.482248	6374.311987	8479.613418	5942.032988
371.156997	6045.260342	8267.662779	6051.517302	6190.324002	6136.323646	418.002833	454.912615	6323.509981	9073.277851	6508.707544	6543.308820	6234.822775	6960.855935	6513.240709	8772.891711
384.917968	6505.330786	9106.300992	403.361221	11514.889112	386.122329	10056.274909	441.156594	7524.420330	400.784690	6201.187831	5332.404062	6139.194884	6566.413054	6935.193980	393.179387
105136.440058	611.336456	6498.576792	8470.189426	6564.661249	6687.965567	9568.472950	384.169913	6462.060823	6373.634160	11753.841890	6316.987345	6523.428553	105143.833503	105131.511672	105146.298216
8890.362210	9198.740774	350.934471	9707.465158	5663.373142	9922.470934	9699.161851	391.834220	375.987551	388.047725	8510.659004	6891.392050	6763.452124	7606.370594	6111.978416	367.083216
7088.985751	6605.504041	6689.234476	6056.373619	13492.410035	6944.581978	6787.430114	370.237804	323.148332	479.170642	7592.099334	5976.012407	5866.788183	5704.443597	5394.160458	9120.500855
415.064048	412.115188	6298.439154	6243.222722	10216.880248	6270.189325	5578.855686	6502.651782	6135.391425	6157.612686	10621.003494	5981.948627	6168.121654	6015.978445	496.465204	616.988499
9261.014478	10038.342355	6138.104936	6298.224095	9213.581325	422.003715	7732.953607	338.100296	7555.770108	6997.210613	10034.208121	6231.605286	6105.343149	6073.238125	6273.318320	9868.830941
382.066301	406.914022	7388.850236	9434.524684	6597.298906	6854.332958	6656.663932	9181.063195	8937.849791	378.777466	6319.844391	685.521311	105141.368906	7010.680281	6864.119707	8144.239308
6175.163635	6301.141013	6256.124231	2141.873200	5804.984966	6319.245949	6714.029497	423.066325	6743.793183	7694.509556	331.362354	7226.692806	5650.618879	5808.218019	6357.856019	7132.693767
7320.052483	10955.221922	6977.633077	6417.438909	402.299460	887.706051	9240.810429	6498.745317	6943.777428	6283.661268	14302.357515	9484.605581	9502.994559	5398.708374	7465.778666	410.369483
6648.578698	6099.564139	6467.436778	6217.529189	9910.177854	10724.886583	7404.650048	6796.104788	411.468936	7066.451867	10627.152903	6624.482280	10398.222841	5894.022366	5513.087615	105156.790857
6491.895698	6953.967487	6002.339474	6462.008659	9599.763947	8152.654412	5955.530491	105144.465774	6401.506100	6870.301671	9486.150533	7597.178671	6994.480356	344.056575	362.988107	373.541907
7124.774730	5961.868041	10290.653126	6284.853944	6529.271818	6355.071130	6245.990700	6055.863607	5763.824929	5603.208991	5965.679673	6165.807205	6722.044413	6008.856744	9655.899890	6365.775309
5970.513247	5896.312989	344.112593	6008.555472	6001.538509	6284.120363	7675.111498	6249.412084	404.531740	404.881077	9803.075516	9938.254319	7680.247635	6659.707431	5351.918645	349.005569
7162.946411	399.681274	6443.781152	369.735118	6325.483386	7200.054994	7072.800271	339.187108	6618.763886	390.111062	413.195120	6171.839469	7732.828013	8000.712569	7393.245918	7088.966123
105154.325609	579.617156	388.194876	7213.565396	9215.548505	7666.729647	420.093739	6100.715117	8876.772051	360.661775	9502.490135	5526.484090	8339.867946	6183.713228	9952.022390	371.874911
387.910362	369.717784	6267.234046	6422.673865	6601.324372	366.669558	6770.515800	400.619913	379.138662	6393.895917	6808.055361	5922.318533	6977.076051	6470.867291	371.616847	390.218724
5594.990572	6591.525657	7387.765554	379.094226	385.948655	9675.685661	5847.334187	6417.690216	339.083036	7862.868166	7689.152662	7618.338664	6375.468092	373.301274	6641.288327	382.873288
5868.935900	8937.266719	6594.793076	5738.121202	6010.337708	6942.562914	7118.934192	6635.056108	8083.802960	6374.068362	6473.683237	7388.985150	6422.752926	7638.102552	351.058186	561.064765
6445.130158	5985.955327	6517.234652	5826.427161	9316.396812	6318.726752	6235.714367	6600.888684	10002.712920	9219.829713	5515.471550	398.058436	5664.813651	7318.404561	9178.925043	6477.212252
6141.405193	6519.411887	10041.901752	9644.217475	6828.508175	7075.420696	10613.925663	6432.419131	19676.569543	7585.930453	6891.559070	6647.045306	9666.115540	20359.834390	5720.265341	6138.342712
9578.346242	8005.952400	7392.604158	6319.819227	6679.298553	6241.777223	5685.264690	7131.674004	6441.535090	6170.285165	6352.481170	5891.959012	6587.051204	367.712373	369.583342	6059.035470
383.925101	6643.364514	373.416496	374.548333	6790.279333	844.077432	383.212120	445.061930	7759.159244	6805.082011	6403.187502	6813.268458	11675.182086	7425.319628	105154.325609	608.012458
6528.863312	7688.208879	6014.834104	9137.086026	407.348866	6492.305071	5809.414277	926.164462	6428.269809	5976.049383	105142.001104	8012.255887	6097.175085	6933.930184	9960.701145	384.486631
7047.273562	10204.900249	391.376235	9456.179783	9542.055701	10266.026652	8736.591399	6418.442156	9504.976956	9131.417347	9700.673968	9402.576148	6022.073207	7755.512085	696.410811	6161.316276
6008.175806	407.929519	6687.397046	5925.425637	6675.299344	6047.409029	6656.997220	5517.147625	6599.656945	10046.228274	6201.346196	9269.737609	6164.364110	6940.896718	7346.650758	350.634480
7134.942720	7259.913201	10107.197968	9460.030105	6040.815668	6394.195685	6681.712688	517.921428	7105.002915	6050.069385	6896.211593	10051.226994	6748.446071	379.370442	10382.271242	8822.978097
6522.665981	6179.942960	6019.287753	6847.760856	7218.770910	377.828506	6285.323708	369.182230	6500.527809	7383.872915	7149.586745	6462.864178	5534.123631	7299.871701	390.503007	337.574712
