5/10/2023	11:27:05 AM

Pc[W]	Q0	Eacc[MV/m]	He_temp[K]
1.883	3757621194.761	7.833	2.001600
15044.934834	344.942741	401.370044	6458.807496	7348.151569	7175.539297	5942.342017	385.818378	7200.648500	105156.168250	6216.955507	6674.405806	6893.313279	6253.117994	10107.866694	7274.842975
6573.967310	9690.980599	6146.688387	5878.454064	7274.100851	9609.319300	7884.310398	376.985566	5846.642699	5668.429728	6771.233303	6103.722027	6589.942864	9948.543764	5948.497773	6027.995051
376.067806	9768.024341	11254.956113	6240.868662	5334.365125	6293.896084	5562.763322	6247.196042	411.646552	6062.532894	451.393675	6403.892160	79396.466526	6205.921361	57459.345644	8460.002382
5908.803672	378.144643	5931.961861	7578.759321	7468.893365	9037.581134	6006.476649	6177.185196	6177.989436	5948.442330	415.584383	6099.024030	6455.474348	6076.724117	6882.811452	8667.326463
9687.558388	9550.921019	396.764371	5360.110822	9282.536692	5990.352199	6148.308962	347.822480	6786.135408	351.456977	9605.388639	10237.260397	370.034015	9101.674644	5151.320210	6383.574612
9739.382499	7111.719596	6894.202582	348.488725	6753.250950	352.588364	6664.686875	6883.938244	7014.695905	7320.797451	393.777797	6138.459465	6095.654973	380.346174	9768.952426	5904.581666
105133.985831	7411.777256	9432.420389	6575.577992	8041.883506	6540.756538	5727.200698	7173.644878	9332.000379	6378.071884	6245.280934	10136.511081	417.169396	6631.630006	9516.943993	8453.344189
105141.378930	9045.305148	9194.971340	5821.735691	6283.159348	5699.257149	9454.824720	392.657401	6771.951834	6146.094162	6172.532914	9039.179438	5882.958643	6375.435638	8479.935111	5942.033554
371.959187	6046.704831	8258.599640	6051.197009	6193.051855	6138.169188	420.088475	451.944615	6323.029257	9073.599592	6507.505017	6540.020300	6236.829039	6963.343221	6514.524838	8772.090374
384.597173	6507.416911	9107.344736	405.928396	11519.060733	389.010462	10056.596760	444.044732	7529.795864	402.389150	6202.311492	5333.607803	6138.393295	6565.932342	6934.873764	395.024208
105136.450082	609.571732	6499.620213	8467.944094	6566.105821	6683.313706	9569.516590	384.169950	6461.179027	6372.752459	11758.816725	6313.698727	6526.397288	105143.843528	105131.521695	105146.308241
8890.523489	9203.233930	350.613650	9709.150767	5662.491311	9921.669668	9702.531906	391.112351	372.618379	388.288437	8508.333402	6891.312492	6763.532980	7609.098710	6110.133739	364.034920
7092.917355	6606.226610	6691.561582	6061.347907	13484.630400	6950.037678	6787.430761	366.948619	324.993362	480.614668	7592.180285	5975.852539	5868.714094	5703.401193	5392.877374	9117.854800
411.133253	413.639500	6297.717815	6243.463975	10217.924146	6266.659862	5581.262626	6502.973279	6132.824934	6160.260570	10655.095305	5983.152487	6165.394723	6015.577969	494.299383	619.154275
9263.181231	10040.348559	6141.153638	6300.069565	9216.470097	425.292513	7733.997170	339.062892	7559.220256	6998.494848	10036.696050	6229.680663	6108.151339	6075.404625	6272.115658	9873.323951
382.627845	408.678719	7388.449891	9435.728845	6598.663326	6855.617120	6658.830588	9185.957217	8938.652798	380.141166	6321.369123	688.809826	105141.378930	7010.761169	6864.842335	8147.047890
6173.078669	6301.302052	6258.451241	2505.616517	5809.558017	6317.722315	6717.078469	422.905931	6741.708174	7692.344472	332.565590	7228.859313	5649.095323	5805.651617	6360.182984	7134.940586
7317.807199	10953.779019	6981.243693	6419.284650	400.775333	890.273151	9241.212388	6498.104227	6940.248443	6278.527714	14300.594095	9481.397564	9506.444975	5401.757149	7470.031098	409.246321
6648.579332	6099.725157	6464.389025	6219.214249	9909.938142	10729.059059	7404.891414	6797.789864	406.575310	7062.842460	10626.271557	6625.686357	10401.913792	5897.231738	5516.617749	105156.800883
6491.896317	6956.374645	6002.821357	6462.490563	9600.647224	8151.451857	5954.488171	105144.475798	6398.297975	6868.858429	9484.546918	7600.147545	6991.994253	340.687436	366.999061	374.985738
7125.497426	5962.751053	10289.370644	6281.405557	6529.914232	6358.039746	6248.959236	6059.233278	5768.237592	5602.567839	5967.525265	6168.374240	6718.194120	6010.301214	9655.740378	6368.102413
5972.118146	5900.565026	343.230286	6008.957118	5999.693885	6285.083628	7675.513349	6245.802852	405.574593	403.998672	9803.076451	9936.169587	7679.927502	6657.622143	5352.801517	351.010921
7162.706432	396.873998	6444.503732	372.943963	6328.692574	7200.777595	7074.646184	341.994981	6622.293711	388.907795	411.831479	6175.369253	7732.267261	8006.328487	7390.920290	7086.159286
105154.335635	581.381891	384.986027	7214.769387	9208.088897	7666.810598	419.612480	6097.185842	8879.821268	361.303557	9499.603111	5531.939467	8336.900731	6183.312726	9949.696788	369.308079
385.984887	369.236521	6266.031397	6424.519543	6598.757952	370.279335	6770.837297	398.614445	377.855114	6397.265620	6808.617499	5921.276210	6974.830548	6473.594949	373.221099	392.224409
5592.424117	6591.927406	7388.728834	379.495335	386.430025	9675.847024	5847.655626	6416.487496	336.596298	7861.745832	7690.276321	7620.023976	6375.388487	371.857514	6641.208746	380.226180
5869.096870	8936.144699	6593.590626	5735.234361	6010.819513	6942.082344	7118.774460	6634.495304	8083.001678	6374.630406	6474.726522	7391.873244	6422.512923	7634.093018	349.534321	558.738867
6449.141034	5986.918360	6519.160199	5826.507922	9315.194621	6321.694947	6233.469216	6600.087261	10004.799210	9223.921059	5514.670024	396.374164	5666.979732	7315.357461	9177.642635	6478.496153
6140.844223	6515.882734	10039.736864	9645.902863	6827.626402	7076.704865	10613.605809	6437.713785	19678.656806	7582.963096	6891.720160	6643.355721	9666.597739	20369.943625	5720.506547	6139.706946
9580.192308	8003.867632	7394.530104	6317.332943	6762.327149	6237.927246	5685.265232	7133.760509	6446.188371	6173.735306	6354.407062	5891.157390	6589.057291	366.990459	371.027376	6057.351422
383.604265	6644.969515	376.384611	375.430791	6781.697417	833.969761	382.811055	443.457567	7759.962130	6806.767365	6407.520007	6789.605798	11666.039370	7426.042285	105154.335635	605.766559
6529.505742	7687.968957	6016.679744	9135.402389	406.386284	6492.225469	5813.987279	925.121663	6426.665941	5977.654133	105142.011128	8011.053432	6094.368089	6934.973856	9961.664760	383.443828
7049.440232	10203.216636	391.376272	9455.137894	9544.302726	10261.214528	8735.549343	6420.127315	9503.293236	9133.102685	9698.910172	9405.063757	6020.790288	7754.149112	696.811932	6159.792678
6011.304969	407.608669	6686.435018	5922.698586	6672.251825	6045.724823	6656.115431	5518.030573	6598.935643	10046.870979	6202.229210	9272.626287	6170.220091	6942.261125	7346.972340	350.634514
7135.264274	7262.240171	10108.963696	9460.833154	6040.094397	6394.517175	6681.392460	522.172653	7100.672104	6056.246777	6899.100045	10053.152968	6749.248936	377.605591	10383.716264	8823.781121
6525.955248	6178.980929	6025.626026	6847.360426	7218.450725	377.828542	6288.533194	368.700933	6502.373278	7288.571960	7088.628608	6387.136877	5533.402159	7298.187810	387.133872	338.296743
