5/10/2023	11:27:45 AM

Pc[W]	Q0	Eacc[MV/m]	He_temp[K]
1.483	6152664393.863	8.893	2.001700
15038.360525	342.857139	401.289949	6454.717680	7343.340626	7173.936926	5613.372181	360.150730	6814.385667	105156.198328	6211.502758	6675.931846	6893.876706	6253.039567	10107.227831	7279.257116
6572.525244	9688.576848	6144.363949	5877.172327	7275.065517	9609.081397	7876.610699	376.183406	5844.318067	5662.495818	6728.883429	6105.087501	6586.736128	9950.311476	5951.467587	6026.312170
378.314053	9765.700994	11253.114374	6239.586878	5331.398747	6292.052754	5560.278349	6242.385011	405.390154	6063.096190	447.944376	6401.166472	80068.345036	6205.842917	57606.643584	8461.127871
5906.398614	374.855838	5923.942946	7578.601058	7468.093308	9036.139771	6005.275049	6171.652351	6174.140588	5948.283612	416.627475	6097.501679	6459.968579	6080.175122	6881.449693	8662.114810
9690.047782	9551.806142	399.732597	5355.860335	9280.774605	5992.600105	6151.920250	349.587362	6793.036045	350.654847	9603.947473	10240.953413	372.841664	9107.132543	5146.668638	6383.255538
9782.786978	7111.160174	6891.958414	343.916112	6753.252882	354.834762	6667.095472	6884.421574	7015.018796	7345.025202	392.494462	6135.172616	6096.057794	377.618636	10212.878601	5913.567494
105134.015902	7408.891481	9435.792298	6575.980960	8041.484635	6543.325426	5726.560552	7173.245786	9328.954501	6377.672612	6241.833129	10137.316135	415.003443	6630.027405	9516.064365	8453.025730
105141.409004	9045.468181	9196.738795	5821.817583	6282.439155	5698.376491	9455.549449	394.101697	6773.237220	6143.208093	6175.342091	9037.737974	5882.318572	6375.437462	8481.221075	5942.516637
373.884466	6045.984604	8266.703391	6050.396566	6190.887858	6138.331374	419.527087	448.575615	6326.079470	9075.527451	6507.346458	6540.744178	6239.237627	6962.944144	6509.793763	8772.253318
385.559778	6505.814538	9106.144023	407.372526	11515.855932	382.351906	10058.204098	436.583942	7527.792489	402.389266	6200.468223	5331.283079	6139.598312	6564.891320	6936.640572	394.623281
105136.480154	609.571906	6494.728925	8469.470683	6561.535200	6687.005532	9568.877648	382.806332	6461.742410	6373.476171	11753.846375	6317.952453	6521.104682	105143.873602	105131.551766	105146.338316
8890.365601	9199.225597	352.218023	9706.666630	5663.375302	9924.480247	9700.609463	392.476063	372.859143	388.609448	8507.854509	6890.031014	6761.529621	7607.496538	6105.722909	366.040506
7089.389570	6609.437120	6686.910559	6058.782563	13490.409783	6947.552810	6790.079938	366.868499	323.629760	478.769719	7595.070621	5977.217976	5866.309082	5701.637835	5395.767014	9119.461605
415.385091	412.516470	6296.997677	6242.021813	10218.087518	6270.271945	5580.542300	6502.092727	6132.184919	6155.128178	10658.146472	5983.876171	6164.193170	6015.098430	494.299524	617.149158
9260.777358	10040.030591	6138.428131	6299.349462	9211.659575	422.966439	7732.074165	338.421280	7559.463077	6997.774843	10034.613073	6229.522010	6105.505912	6074.443731	6273.320713	9868.594058
383.991618	411.004976	7390.296831	9434.448065	6598.264098	6854.175134	6656.987363	9182.911654	8941.703546	379.740197	6322.253323	683.997656	105141.409004	7010.763174	6863.079474	8143.841298
6172.839794	6301.544512	6259.736569	1731.690382	5804.666303	6322.136389	6716.599075	426.515834	6743.474885	7692.667534	330.881199	7224.930820	5650.380387	5808.300452	6362.430943	7135.504162
7323.023179	10951.856889	6977.395074	6419.767824	401.577640	889.310775	9245.947747	6497.303950	6940.811963	6279.411943	14297.951010	9484.849868	9504.281722	5399.592824	7463.214436	413.899700
6649.222981	6102.454327	6463.829332	6221.461985	9908.015736	10725.371994	7408.343004	6796.267801	407.778787	7063.566497	10626.675669	6622.960442	10402.799149	5895.468579	5514.453431	105156.830961
6493.101506	6953.729490	5999.935211	6460.807904	9600.088467	8151.855300	5954.650319	105144.505873	6395.171287	6867.576929	9482.062627	7592.849673	6991.675379	342.291901	364.351959	372.499308
7121.889382	5965.319867	10285.282543	6279.482337	6531.761253	6355.554852	6250.324672	6059.716310	5762.704042	5602.729862	5964.238017	6166.531370	6721.324926	6008.056870	9654.459675	6366.018409
5970.194658	5894.550475	343.150171	6011.445490	5999.294472	6282.919426	7675.595769	6248.211191	403.569296	402.394345	9802.597933	9936.733959	7681.132947	6658.827464	5349.594462	350.529745
7161.906278	398.718919	6443.302299	372.222088	6324.603437	7197.490931	7073.444791	342.476423	6622.696651	388.346364	412.633762	6170.718897	7730.745431	8005.047313	7394.853106	7083.835089
105154.365712	581.382058	386.269692	7210.760437	9212.102546	7664.085301	419.532383	6099.193187	8876.213895	362.747591	9498.161863	5533.786073	8334.336186	6182.271655	9950.341442	369.789473
386.546606	371.242039	6263.706909	6420.911468	6597.636756	370.600307	6768.673489	396.528832	380.422391	6394.620305	6808.539234	5920.475682	6975.634747	6473.516595	373.702471	391.582713
5593.789429	6587.918088	7388.009016	383.105103	386.751024	9671.918997	5845.812232	6413.922222	334.029406	7862.630504	7688.754549	7616.496546	6373.866268	370.494036	6643.456656	385.841445
5867.975675	8936.788896	6590.705123	5736.439080	6010.901437	6941.282277	7119.658754	6634.898227	8082.362348	6372.466688	6471.439958	7388.266121	6420.910655	7635.298281	352.662425	560.022310
6446.095079	5984.914941	6517.317343	5826.669999	9314.315028	6320.333266	6232.588740	6596.319502	10001.834476	9220.073845	5515.313243	393.887915	5665.216838	7312.792986	9181.094086	6478.096980
6139.883314	6519.494595	10040.862767	9642.135621	6829.312981	7075.102521	10613.127546	6432.020521	19678.582227	7583.125702	6889.155203	6644.240065	9665.477524	20364.013422	5720.347743	6134.655180
9582.120426	8004.431411	7393.088288	6315.890751	6706.415552	6236.244404	5684.544960	7127.745746	6447.152836	6172.132629	6352.162711	5889.955799	6590.102015	368.514678	368.460373	6057.513595
386.091145	6644.169232	376.866029	373.585832	6786.030745	838.382114	382.490283	444.580778	7761.889501	6804.041694	6401.023996	6811.586550	11666.122916	7424.760945	105154.365712	608.814817
6527.742638	7692.704042	6016.601244	9135.164358	407.028148	6492.387767	5810.058240	927.368148	6426.748003	5970.677659	105142.041202	8012.579802	6093.888532	6929.921250	9956.774056	386.251582
7047.276250	10204.503048	390.654436	9452.974803	9543.423054	10261.297680	8735.391397	6420.129151	9503.055294	9129.656149	9701.239170	9400.012804	6021.193102	7753.429364	698.255927	6156.024087
6007.055014	407.368119	6687.479819	5924.144313	6671.932875	6045.164957	6654.031607	5518.673914	6596.851950	10045.991450	6197.417767	9273.511321	6168.296794	6941.701569	7349.300829	350.233522
7132.779544	7261.600516	10107.602907	9457.948132	6040.817972	6394.920106	6681.554804	519.124789	7101.315837	6052.317807	6895.732924	10050.268318	6744.517758	378.247476	10379.146463	8820.815564
6524.834162	6181.389248	6024.504612	6844.474589	7218.292352	372.454017	6263.345230	365.492152	6500.289655	7322.988542	7150.712397	6454.523734	5533.323520	7297.708588	388.417478	338.056174
