5/10/2023	11:26:23 AM

Pc[W]	Q0	Eacc[MV/m]	He_temp[K]
1.300	6987069106.983	8.874	2.001700
15040.340387	342.776331	401.369470	6449.491748	7339.798464	7174.807045	5542.931797	352.610221	6722.681346	105156.017860	6215.663199	6678.006037	6896.832566	6254.713359	10108.734649	7279.405062
6572.995279	9688.640438	6140.743797	5876.199679	7269.437955	9611.631859	7877.961067	382.360213	5842.302605	5666.576797	6756.705315	6103.713298	6587.928055	9952.460368	5950.173868	6024.216130
371.815655	9765.202964	11253.496139	6238.212380	5334.357496	6293.325522	5565.482561	6247.828816	410.523001	6060.679097	447.382073	6403.722559	78331.381780	6208.158622	57435.678429	8464.883651
5906.869826	373.090415	5926.018135	7578.507836	7467.198081	9037.167113	6005.665848	6173.165780	6176.697064	5951.401583	419.274301	6097.410999	6455.384894	6071.822288	6881.999418	8662.821900
9687.223679	9554.998440	397.245118	5357.455676	9283.165140	5992.188715	6153.193078	349.025241	6797.596770	352.258703	9603.369470	10238.128167	370.675209	9100.618705	5145.777333	6382.763235
9733.271484	7110.987554	6894.433379	348.087112	6756.209609	358.283818	6663.875114	6883.447039	7014.685873	7319.022201	397.226495	6133.878731	6095.084747	377.938887	9975.257384	5907.541191
105133.835473	7412.087532	9434.412378	6576.611413	8042.513878	6543.233978	5728.155182	7172.431190	9331.746359	6376.779256	6239.094839	10137.138307	410.269469	6627.930182	9518.133585	8454.134291
105141.228562	9047.137339	9196.482353	5826.059604	6281.465721	5697.644841	9457.699291	394.020789	6771.220211	6142.395378	6169.556256	9036.519092	5879.260150	6374.704565	8480.564752	5942.987821
375.327700	6044.530318	8261.395235	6054.156394	6194.406627	6140.165793	420.729598	450.740710	6323.100436	9071.019604	6508.538437	6540.010947	6237.141026	6963.092622	6514.274863	8768.387834
386.842442	6506.044007	9110.380110	407.452050	11517.199607	385.159116	10057.304384	438.187689	7525.693823	402.549017	6201.019116	5326.942299	6139.748210	6569.051645	6938.634146	393.018447
105136.299721	613.100419	6500.252641	8469.536367	6563.850295	6682.341564	9563.968431	379.516691	6461.731321	6371.861038	11748.772274	6316.577789	6519.569327	105143.693156	105131.371341	105146.157866
8890.911851	9203.942741	351.736138	9706.810417	5662.643644	9919.168626	9699.710425	389.988830	369.409081	384.677767	8511.289412	6891.061990	6765.127540	7608.606524	6113.494600	365.799220
7090.981861	6608.864270	6688.984879	6055.643546	13483.728750	6942.968288	6786.699081	362.214832	324.110508	483.341494	7593.453053	5976.565964	5868.063918	5704.917343	5394.153258	9123.055394
415.143715	412.114638	6299.313116	6239.764965	10212.374021	6268.175242	5580.612936	6502.161787	6132.735942	6157.925350	10657.406259	5983.304368	6167.952979	6018.136077	497.186497	617.789792
9261.724072	10040.093570	6137.535248	6300.140767	9208.675658	422.965714	7734.948717	339.623901	7558.327035	6997.843056	10034.916751	6231.195882	6109.586514	6072.989362	6273.630816	9869.379276
384.071175	404.747765	7388.679953	9430.902314	6598.814335	6852.879864	6660.265077	9182.334387	8940.484969	382.547083	6321.680952	687.605751	105141.228562	7012.275306	6862.024847	8146.314232
6173.711549	6299.448000	6253.869692	2785.057083	5803.613492	6320.200189	6716.266671	425.632712	6744.586354	7693.857563	331.602552	7226.763375	5652.055213	5807.488311	6359.933231	7135.090821
7321.967836	10949.190861	6978.827079	6416.467668	400.052787	887.945523	9243.204556	6498.335575	6943.206625	6279.722050	14299.530818	9481.865342	9504.506074	5401.187903	7462.319196	408.844593
6648.569824	6098.031850	6464.941320	6218.483441	9907.758076	10727.599752	7406.084126	6796.496770	407.778088	7063.875270	10627.218933	6626.800094	10395.240954	5892.169435	5515.005495	105156.650493
6493.812360	6952.353877	6002.973209	6462.882393	9599.189632	8151.359977	5953.356547	105144.325426	6396.524022	6866.281681	9484.774031	7597.088309	6994.551237	343.334151	360.982166	375.306045
7124.123429	5964.667853	10288.794414	6283.562214	6528.942206	6354.180267	6245.982362	6057.459852	5764.699656	5600.313925	5963.906908	6164.916760	6720.430887	6011.174998	9655.646352	6366.248155
5971.227225	5895.262306	344.753835	6010.151742	5997.438982	6281.063538	7675.341924	6248.922432	405.574013	405.201425	9801.137147	9935.754286	7677.189161	6656.730118	5351.911502	350.849994
7159.407163	400.081785	6440.403383	373.825852	6325.474943	7200.125596	7073.031513	341.272477	6620.439437	389.147899	412.793486	6172.312484	7732.817692	8003.589679	7394.359106	7083.101001
105154.185248	583.065525	386.108585	7210.828282	9213.530700	7662.387525	421.135991	6101.268541	8880.049229	358.014091	9498.787323	5528.963480	8338.412920	6184.667593	9950.003461	371.152484
386.626172	373.808326	6265.300488	6426.435639	6599.229836	371.963349	6768.742085	402.464442	380.742634	6396.053225	6805.720107	5919.984189	6972.012868	6474.227347	371.054875	388.613687
5592.656774	6587.184767	7386.392046	377.248787	387.552581	9671.501297	5846.042860	6415.435433	333.788178	7861.253268	7688.099683	7615.841728	6372.331290	371.776772	6640.958605	382.712344
5865.719862	8935.329867	6590.854222	5737.231287	6008.885993	6940.468314	7118.603869	6632.079662	8080.824579	6372.215136	6473.353774	7388.413852	6419.455944	7636.408049	349.694231	558.818273
6446.805862	5985.867132	6519.872722	5828.264101	9316.223966	6318.878728	6231.214558	6599.035155	10004.464080	9220.298637	5514.100701	392.363342	5665.848756	7313.502282	9179.153406	6479.048323
6141.477217	6519.563629	10040.043371	9646.129705	6830.504563	7073.806887	10612.547817	6432.972033	19675.821416	7586.080764	6887.378619	6646.234213	9665.781787	20362.775231	5721.380788	6137.452159
9582.344653	8005.620863	7391.471235	6317.163465	6756.140527	6237.356783	5684.454993	7132.867844	6445.136315	6172.202258	6354.397974	5887.860016	6590.652233	367.230584	369.983959	6056.540558
383.924589	6641.911717	372.854470	377.355538	6784.094041	836.776273	382.890728	447.066839	7761.394893	6807.399421	6408.954806	6787.269867	11669.471669	7425.389934	105154.185248	608.733560
6528.373242	7693.813896	6018.837083	9135.148681	406.145048	6491.975524	5813.417436	927.045668	6429.544811	5974.918482	105141.860759	8017.539351	6096.765864	6933.279078	9960.126294	381.919133
7047.504822	10204.886628	393.862421	9455.044157	9545.331914	10264.087710	8736.980847	6416.989694	9502.397224	9130.201968	9704.110244	9400.477972	6023.268443	7752.854530	692.880609	6162.190473
6007.686466	407.688308	6688.832117	5923.251683	6671.359923	6043.790712	6654.180629	5519.466645	6598.284489	10045.813772	6201.097258	9273.174541	6165.157990	6942.331416	7348.486015	351.355977
7135.414505	7259.261778	10105.901016	9458.012114	6039.444118	6395.550892	6679.537927	518.161369	7101.143224	6053.590912	6896.443037	10051.935457	6749.078840	378.567715	10381.374920	8823.527847
6525.464650	6179.613838	6024.975617	6847.591282	7217.558000	377.106037	6268.308246	363.646418	6501.642082	7316.558363	7079.635079	6397.797020	5533.715134	7298.016937	391.545323	338.697370
