5/10/2023	11:27:34 AM

Pc[W]	Q0	Eacc[MV/m]	He_temp[K]
1.451	6384067817.399	8.961	2.001700
15047.570828	343.418313	400.006172	6453.828396	7338.439668	7172.726085	5575.182855	377.235436	7184.117500	105156.088042	6214.704785	6676.967669	6893.869476	6251.909993	10106.575477	7275.960495
6572.999666	9692.256684	6140.908323	5879.652783	7275.619396	9615.568923	7886.310100	382.119788	5847.440413	5667.863936	6727.111715	6102.754742	6585.285342	9946.450427	5948.172359	6029.675056
377.671903	9767.375197	11256.872699	6240.543010	5331.874437	6294.452844	5566.127969	6243.020172	409.801370	6057.394001	449.307632	6403.405949	73293.245736	6204.312243	57343.466247	8461.279435
5912.409282	375.096097	5926.824150	7580.999573	7470.812929	9038.536871	6007.434720	6174.132441	6177.503397	5948.838842	414.942237	6099.019378	6457.314509	6079.607237	6881.041380	8664.191376
9689.476124	9563.026551	399.812397	5362.272855	9284.775644	5994.519126	6147.582368	348.303518	6789.258707	350.413810	9600.327621	10235.166889	372.119334	9103.352424	5149.711784	6384.853341
9775.636705	7111.714172	6894.839077	347.044446	6757.577940	354.593715	6667.329149	6882.007552	7017.257629	7344.616412	393.777497	6137.412056	6097.415063	379.302961	10205.969196	5905.619964
105133.905640	7410.808972	9434.659333	6575.011456	8042.278543	6545.324044	5724.388526	7170.590719	9330.067865	6377.104388	6243.832157	10137.385719	415.564581	6632.266747	9517.738870	8453.337742
105141.298734	9045.779587	9197.451122	5822.373064	6283.234777	5697.327812	9454.015260	392.817566	6771.465376	6143.923606	6173.731381	9042.140863	5885.200293	6372.542952	8481.533065	5946.441698
372.761058	6045.898046	8261.320538	6050.149569	6192.004355	6136.560197	418.403631	450.339925	6326.875046	9074.555302	6509.264669	6542.020886	6239.712444	6961.172143	6514.760526	8775.051724
387.163532	6507.652583	9105.733367	405.286302	11514.881426	382.271280	10056.669312	438.508880	7527.142825	403.191054	6202.467200	5331.758780	6140.795133	6569.778036	6938.718996	395.906193
105136.369889	610.854744	6497.770300	8468.739828	6564.737086	6684.752486	9566.541528	382.805931	6460.452126	6373.870536	11746.935026	6318.507401	6520.456090	105143.763330	105131.441506	105146.228041
8890.757354	9202.344499	351.656159	9708.742247	5665.615394	9925.673155	9701.241028	394.240308	373.259848	392.780731	8512.097303	6894.435638	6765.051844	7608.772037	6112.134794	362.269820
7093.874620	6609.751050	6688.989343	6061.102620	13492.320798	6948.508176	6790.875009	365.424067	320.581163	476.362585	7597.469458	5976.730392	5868.388727	5704.921151	5396.242704	9118.248894
413.940677	409.788394	6297.392150	6240.892198	10217.836127	6265.852796	5576.846624	6503.048538	6134.665341	6161.298745	10649.873295	5982.105074	6165.871347	6015.653591	494.459440	616.025548
9259.163299	10040.020061	6138.181052	6299.423067	9217.746574	427.217314	7732.547360	339.543914	7562.663917	7000.254416	10036.287271	6232.323083	6109.510374	6071.629688	6268.581312	9870.990172
383.991216	404.988671	7386.358800	9432.673389	6598.979185	6850.317424	6658.424394	9185.549133	8937.683396	379.980445	6323.209300	687.526004	105141.298734	7006.183327	6863.954687	8145.998777
6174.678232	6300.334615	6261.173984	1741.473930	5805.061311	6321.568198	6716.431592	425.632996	6744.831507	7694.263775	330.720425	7225.244105	5648.529506	5809.497620	6359.215502	7134.854925
7320.047597	10953.289349	6979.553726	6418.718193	402.218972	887.063705	9238.076937	6495.131370	6941.847533	6275.394304	14299.861231	9482.353008	9503.389322	5400.068465	7463.367050	412.374923
6649.055570	6103.169892	6465.667617	6218.888654	9906.400976	10729.933298	7405.687968	6796.180462	406.976120	7065.484464	10626.584309	6624.879006	10391.638152	5896.264598	5515.410267	105156.720675
6493.736472	6951.957434	6004.180490	6459.918767	9601.121189	8152.729193	5954.002297	105144.395600	6398.132658	6866.607129	9483.737426	7596.371398	6990.705426	341.328922	363.549393	375.627138
7124.208408	5964.190502	10290.004528	6283.085153	6532.877538	6356.751433	6245.906316	6058.907790	5764.222182	5601.681246	5967.199840	6165.803090	6721.879471	6008.932950	9655.572580	6365.771060
5972.193807	5900.159443	344.593640	6006.626313	6000.571793	6284.597501	7673.822791	6247.242018	403.729306	406.966581	9800.662367	9936.723537	7681.205108	6658.018204	5351.995288	352.534694
7159.893262	397.435158	6443.616414	374.066762	6327.003241	7198.205297	7076.887164	341.112256	6618.839677	387.383315	413.435493	6174.883289	7731.379024	8003.755455	7397.652992	7084.068303
105154.255429	579.937620	384.825289	7212.357279	9218.430283	7666.162988	419.852809	6101.192389	8878.129871	358.656077	9500.638728	5529.608917	8339.782164	6186.998052	9949.207845	369.147368
387.589185	368.674724	6262.336661	6426.038827	6597.549616	371.001000	6770.992557	401.421848	379.298857	6397.822256	6806.366351	5920.309028	6974.584568	6471.825457	372.338496	389.255753
5593.141816	6590.799242	7389.284700	380.457621	387.953950	9675.839643	5848.212707	6415.279270	337.237788	7864.467323	7689.067321	7619.857727	6375.784688	374.022922	6644.893551	383.835630
5868.530957	8934.613984	6593.184570	5738.117372	6013.702314	6943.199921	7117.485749	6636.896397	8082.754897	6374.144312	6471.272761	7391.867604	6420.823716	7632.483092	349.935080	560.422749
6445.045652	5987.074204	6519.315637	5829.952299	9315.909362	6321.449510	6233.063435	6601.285304	10005.834245	9224.154638	5515.307459	393.085450	5668.659717	7314.790445	9181.325073	6476.245467
6140.679095	6519.487758	10038.525959	9647.098696	6827.621194	7076.298376	10614.079012	6432.896114	19676.957447	7586.166045	6891.795120	6646.158427	9666.590365	20359.660370	5717.614257	6136.092608
9582.671944	8006.508546	7393.000315	6318.130345	6709.938208	6240.008213	5687.667219	7133.033052	6445.381271	6173.409709	6353.840673	5891.553988	6588.651173	369.236240	368.379764	6058.229224
382.561134	6640.873312	375.261268	376.393147	6776.398330	839.424097	384.254727	443.216568	7761.400074	6808.847996	6398.610676	6804.440311	11659.533546	7428.844197	105154.255429	609.215242
6528.538051	7693.819031	6016.514714	9138.443575	404.380516	6492.942499	5809.410400	925.923178	6427.623726	5977.408946	105141.930931	8028.854958	6096.449067	6933.684862	9958.287833	383.202881
7046.065528	10206.016495	390.333160	9455.130683	9546.381123	10264.254997	8734.820681	6417.234626	9502.965108	9131.812316	9699.945563	9402.409440	6020.143949	7757.512367	696.731190	6161.392384
6010.016862	407.367692	6685.467253	5921.250037	6675.294889	6047.324765	6655.468592	5519.309888	6598.930609	10044.055673	6204.791526	9270.533586	6168.851801	6939.688783	7349.614002	349.751845
7133.574247	7256.699698	10108.554903	9459.301860	6036.239942	6395.314500	6684.916887	517.520028	7103.474131	6056.803685	6900.458462	10054.188015	6748.040457	377.765747	10383.708344	8824.977666
6525.629427	6181.543202	6023.856502	6845.109143	7217.081508	377.106289	6274.008195	369.422650	6485.524053	7331.965523	7142.042335	6453.634543	5533.959493	7300.187702	391.064274	336.692044
